{
  "resourceType": "Bundle",
  "type": "collection",
  "entry": [
    {
      "fullUrl": "urn:uuid:practitioner-1",
      "resource": {
        "resourceType": "Practitioner",
        "id": "practitioner-1",
        "identifier": [
          {
            "system": "http://hospital.smarthealthit.org",
            "value": "67890"
          }
        ],
        "name": [
          {
            "use": "official",
            "family": "Smith",
            "given": [
              "Jane"
            ]
          }
        ],
        "gender": "female"
      }
    },
    {
      "fullUrl": "urn:uuid:encounter-1",
      "resource": {
        "resourceType": "Encounter",
        "id": "encounter-1",
        "status": "finished",
        "class": {
          "system": "http://terminology.hl7.org/CodeSystem/v3-ActCode",
          "code": "AMB",
          "display": "ambulatory"
        },
        "subject": {
          "reference": "Patient/patient-1"
        },
        "participant": [
          {
            "individual": {
              "reference": "Practitioner/practitioner-1"
            }
          }
        ],
        "period": {
          "start": "2024-06-20T09:00:00Z",
          "end": "2024-06-20T09:30:00Z"
        }
      }
    },
    {
      "fullUrl": "urn:uuid:observation-1",
      "resource": {
        "resourceType": "Observation",
        "id": "observation-1",
        "status": "final",
        "code": {
          "coding": [
            {
              "system": "http://loinc.org",
              "code": "11506-3",
              "display": "Note"
            }
          ],
          "text": "Clinical Note"
        },
        "subject": {
          "reference": "Patient/patient-1"
        },
        "encounter": {
          "reference": "Encounter/encounter-1"
        },
        "effectiveDateTime": "2024-06-20T09:00:00Z",
        "issued": "2024-06-20T09:30:00Z",
        "valueString": "Please schedule an appointment before June 31, 2024."
      }
    },
    {
      "fullUrl": "urn:uuid:condition-1",
      "resource": {
        "resourceType": "Condition",
        "id": "condition-1",
        "clinicalStatus": {
          "coding": [
            {
              "system": "http://terminology.hl7.org/CodeSystem/condition-clinical",
              "code": "active"
            }
          ]
        },
        "verificationStatus": {
          "coding": [
            {
              "system": "http://terminology.hl7.org/CodeSystem/condition-ver-status",
              "code": "confirmed"
            }
          ]
        },
        "category": [
          {
            "coding": [
              {
                "system": "http://terminology.hl7.org/CodeSystem/condition-category",
                "code": "problem-list-item"
              }
            ]
          }
        ],
        "code": {
          "coding": [
            {
              "system": "http://snomed.info/sct",
              "code": "123456",
              "display": "Hypertension"
            }
          ]
        },
        "subject": {
          "reference": "Patient/patient-1"
        }
      }
    },
    {
      "fullUrl": "urn:uuid:condition-2",
      "resource": {
        "resourceType": "Condition",
        "id": "condition-2",
        "clinicalStatus": {
          "coding": [
            {
              "system": "http://terminology.hl7.org/CodeSystem/condition-clinical",
              "code": "active"
            }
          ]
        },
        "verificationStatus": {
          "coding": [
            {
              "system": "http://terminology.hl7.org/CodeSystem/condition-ver-status",
              "code": "confirmed"
            }
          ]
        },
        "category": [
          {
            "coding": [
              {
                "system": "http://terminology.hl7.org/CodeSystem/condition-category",
                "code": "problem-list-item"
              }
            ]
          }
        ],
        "code": {
          "coding": [
            {
              "system": "http://snomed.info/sct",
              "code": "7891011",
              "display": "Diabetes"
            }
          ]
        },
        "subject": {
          "reference": "Patient/patient-1"
        }
      }
    }
  ]
}

